color1,color2,color3,color4,trials.thisRepN,trials.thisTrialN,trials.thisN,trials.thisIndex,circles.thisRepN,circles.thisTrialN,circles.thisN,circles.thisIndex,instructions.started,instructions.stopped,ready.keys,ready.rt,ready.started,ready.stopped,blank_img.started,blank_img.stopped,pause.started,pause.stopped,indicate1.started,indicate1.stopped,indcate2.started,indcate2.stopped,indcate3.started,indcate3.stopped,indicate4.started,indicate4.stopped,square1.started,square1.stopped,square2.started,square2.stopped,square3.started,square3.stopped,square4.started,square4.stopped,participant,session,date,expName,psychopyVersion,frameRate,
,,,,,,,,,,,,17.05981070001144,None,space,4.364088499976788,17.05981070001144,None,,,,,,,,,,,,,,,,,,,,,sultan,001,2020_Nov_24_0937,offline,2020.2.6,120,
"[1, 1, 1]","[1, 0, 0]","[1, 1, 1]","[1, 1, 1]",0,0,0,0,0,0,0,2,,,,,,,21.432093999988865,None,22.462273599987384,None,22.462273599987384,None,22.462273599987384,None,22.462273599987384,None,22.462273599987384,None,23.43767160002608,None,23.43767160002608,None,23.43767160002608,None,23.43767160002608,None,sultan,001,2020_Nov_24_0937,offline,2020.2.6,120,
"[1, 1, 1]","[1, 1, 1]","[1, 0, 0]","[1, 1, 1]",0,0,0,0,0,1,1,1,,,,,,,,,26.436163100006524,None,26.436163100006524,None,26.436163100006524,None,26.436163100006524,None,26.436163100006524,None,27.438519400020596,None,27.438519400020596,None,27.438519400020596,None,27.438519400020596,None,sultan,001,2020_Nov_24_0937,offline,2020.2.6,120,
"[1, 0, 0]","[1, 1, 1]","[1, 1, 1]","[1, 1, 1]",0,0,0,0,0,2,2,3,,,,,,,,,30.439897699980065,None,30.439897699980065,None,30.439897699980065,None,30.439897699980065,None,30.439897699980065,None,31.439822499989532,None,31.439822499989532,None,31.439822499989532,None,31.439822499989532,None,sultan,001,2020_Nov_24_0937,offline,2020.2.6,120,
"[1, 1, 1]","[1, 1, 1]","[1, 1, 1]","[1, 0, 0]",0,0,0,0,0,3,3,0,,,,,,,,,34.43864599999506,None,34.43864599999506,None,34.43864599999506,None,34.43864599999506,None,34.43864599999506,None,35.43256079999264,None,35.43256079999264,None,35.43256079999264,None,35.43256079999264,None,sultan,001,2020_Nov_24_0937,offline,2020.2.6,120,
,,,,0,0,0,0,,,,,,,,,,,38.43974579998758,None,,,,,,,,,,,,,,,,,,,sultan,001,2020_Nov_24_0937,offline,2020.2.6,120,
"[1, 1, 1]","[1, 1, 1]","[1, 0, 0]","[1, 1, 1]",1,0,1,0,0,0,0,1,,,,,,,39.43357880000258,None,40.435816399985924,None,40.435816399985924,None,40.435816399985924,None,40.435816399985924,None,40.435816399985924,None,41.438314499973785,None,41.438314499973785,None,41.438314499973785,None,41.438314499973785,None,sultan,001,2020_Nov_24_0937,offline,2020.2.6,120,
"[1, 0, 0]","[1, 1, 1]","[1, 1, 1]","[1, 1, 1]",1,0,1,0,0,1,1,3,,,,,,,,,44.4376079000067,None,44.4376079000067,None,44.4376079000067,None,44.4376079000067,None,44.4376079000067,None,45.43996430002153,None,45.43996430002153,None,45.43996430002153,None,45.43996430002153,None,sultan,001,2020_Nov_24_0937,offline,2020.2.6,120,
"[1, 1, 1]","[1, 1, 1]","[1, 1, 1]","[1, 0, 0]",1,0,1,0,0,2,2,0,,,,,,,,,48.438489700027276,None,48.438489700027276,None,48.438489700027276,None,48.438489700027276,None,48.438489700027276,None,49.43236209999304,None,49.43236209999304,None,49.43236209999304,None,49.43236209999304,None,sultan,001,2020_Nov_24_0937,offline,2020.2.6,120,
"[1, 1, 1]","[1, 0, 0]","[1, 1, 1]","[1, 1, 1]",1,0,1,0,0,3,3,2,,,,,,,,,52.439481600013096,None,52.439481600013096,None,52.439481600013096,None,52.439481600013096,None,52.439481600013096,None,53.433234600001015,None,53.433234600001015,None,53.433234600001015,None,53.433234600001015,None,sultan,001,2020_Nov_24_0937,offline,2020.2.6,120,
,,,,1,0,1,0,,,,,,,,,,,56.44040939997649,None,,,,,,,,,,,,,,,,,,,sultan,001,2020_Nov_24_0937,offline,2020.2.6,120,
"[1, 1, 1]","[1, 1, 1]","[1, 0, 0]","[1, 1, 1]",2,0,2,0,0,0,0,1,,,,,,,57.43432569998549,None,58.436719899997115,None,58.436719899997115,None,58.436719899997115,None,58.436719899997115,None,58.436719899997115,None,59.43904169998132,None,59.43904169998132,None,59.43904169998132,None,59.43904169998132,None,sultan,001,2020_Nov_24_0937,offline,2020.2.6,120,
"[1, 0, 0]","[1, 1, 1]","[1, 1, 1]","[1, 1, 1]",2,0,2,0,0,1,1,3,,,,,,,,,62.43781969998963,None,62.43781969998963,None,62.43781969998963,None,62.43781969998963,None,62.43781969998963,None,63.43307159998221,None,63.43307159998221,None,63.43307159998221,None,63.43307159998221,None,sultan,001,2020_Nov_24_0937,offline,2020.2.6,120,
"[1, 1, 1]","[1, 0, 0]","[1, 1, 1]","[1, 1, 1]",2,0,2,0,0,2,2,2,,,,,,,,,66.44009689998347,None,66.44009689998347,None,66.44009689998347,None,66.44009689998347,None,66.44009689998347,None,67.43395360000432,None,67.43395360000432,None,67.43395360000432,None,67.43395360000432,None,sultan,001,2020_Nov_24_0937,offline,2020.2.6,120,
"[1, 1, 1]","[1, 1, 1]","[1, 1, 1]","[1, 0, 0]",2,0,2,0,0,3,3,0,,,,,,,,,70.43237709999084,None,70.43237709999084,None,70.43237709999084,None,70.43237709999084,None,70.43237709999084,None,71.43459540000185,None,71.43459540000185,None,71.43459540000185,None,71.43459540000185,None,sultan,001,2020_Nov_24_0937,offline,2020.2.6,120,
,,,,2,0,2,0,,,,,,,,,,,74.43359510001028,None,,,,,,,,,,,,,,,,,,,sultan,001,2020_Nov_24_0937,offline,2020.2.6,120,
"[1, 1, 1]","[1, 0, 0]","[1, 1, 1]","[1, 1, 1]",3,0,3,0,0,0,0,2,,,,,,,75.43609029997606,None,76.43822800001362,None,76.43822800001362,None,76.43822800001362,None,76.43822800001362,None,76.43822800001362,None,77.4406711999909,None,77.4406711999909,None,77.4406711999909,None,77.4406711999909,None,sultan,001,2020_Nov_24_0937,offline,2020.2.6,120,
"[1, 1, 1]","[1, 1, 1]","[1, 1, 1]","[1, 0, 0]",3,0,3,0,0,1,1,0,,,,,,,,,80.43891560001066,None,80.43891560001066,None,80.43891560001066,None,80.43891560001066,None,80.43891560001066,None,81.43322379997699,None,81.43322379997699,None,81.43322379997699,None,81.43322379997699,None,sultan,001,2020_Nov_24_0937,offline,2020.2.6,120,
"[1, 1, 1]","[1, 1, 1]","[1, 0, 0]","[1, 1, 1]",3,0,3,0,0,2,2,1,,,,,,,,,84.4334049000172,None,84.4334049000172,None,84.4334049000172,None,84.4334049000172,None,84.4334049000172,None,85.43894770002225,None,85.43894770002225,None,85.43894770002225,None,85.43894770002225,None,sultan,001,2020_Nov_24_0937,offline,2020.2.6,120,
"[1, 0, 0]","[1, 1, 1]","[1, 1, 1]","[1, 1, 1]",3,0,3,0,0,3,3,3,,,,,,,,,88.43905639997683,None,88.43905639997683,None,88.43905639997683,None,88.43905639997683,None,88.43905639997683,None,89.43921009998303,None,89.43921009998303,None,89.43921009998303,None,89.43921009998303,None,sultan,001,2020_Nov_24_0937,offline,2020.2.6,120,
,,,,3,0,3,0,,,,,,,,,,,92.43761159997666,None,,,,,,,,,,,,,,,,,,,sultan,001,2020_Nov_24_0937,offline,2020.2.6,120,
"[1, 1, 1]","[1, 1, 1]","[1, 1, 1]","[1, 0, 0]",4,0,4,0,0,0,0,0,,,,,,,93.44002839998575,None,94.43435509997653,None,94.43435509997653,None,94.43435509997653,None,94.43435509997653,None,94.43435509997653,None,95.43718780000927,None,95.43718780000927,None,95.43718780000927,None,95.43718780000927,None,sultan,001,2020_Nov_24_0937,offline,2020.2.6,120,
"[1, 0, 0]","[1, 1, 1]","[1, 1, 1]","[1, 1, 1]",4,0,4,0,0,1,1,3,,,,,,,,,98.43556010001339,None,98.43556010001339,None,98.43556010001339,None,98.43556010001339,None,98.43556010001339,None,99.43807089998154,None,99.43807089998154,None,99.43807089998154,None,99.43807089998154,None,sultan,001,2020_Nov_24_0937,offline,2020.2.6,120,
"[1, 1, 1]","[1, 0, 0]","[1, 1, 1]","[1, 1, 1]",4,0,4,0,0,2,2,2,,,,,,,,,102.43653840001207,None,102.43653840001207,None,102.43653840001207,None,102.43653840001207,None,102.43653840001207,None,103.43895779998275,None,103.43895779998275,None,103.43895779998275,None,103.43895779998275,None,sultan,001,2020_Nov_24_0937,offline,2020.2.6,120,
"[1, 1, 1]","[1, 1, 1]","[1, 0, 0]","[1, 1, 1]",4,0,4,0,0,3,3,1,,,,,,,,,106.43739490001462,None,106.43739490001462,None,106.43739490001462,None,106.43739490001462,None,106.43739490001462,None,107.43956650001928,None,107.43956650001928,None,107.43956650001928,None,107.43956650001928,None,sultan,001,2020_Nov_24_0937,offline,2020.2.6,120,
,,,,4,0,4,0,,,,,,,,,,,110.43807939998806,None,,,,,,,,,,,,,,,,,,,sultan,001,2020_Nov_24_0937,offline,2020.2.6,120,
"[1, 1, 1]","[1, 0, 0]","[1, 1, 1]","[1, 1, 1]",5,0,5,0,0,0,0,2,,,,,,,111.44046180002624,None,112.43455810000887,None,112.43455810000887,None,112.43455810000887,None,112.43455810000887,None,112.43455810000887,None,113.43704109999817,None,113.43704109999817,None,113.43704109999817,None,113.43704109999817,None,sultan,001,2020_Nov_24_0937,offline,2020.2.6,120,
"[1, 0, 0]","[1, 1, 1]","[1, 1, 1]","[1, 1, 1]",5,0,5,0,0,1,1,3,,,,,,,,,116.43575950001832,None,116.43575950001832,None,116.43575950001832,None,116.43575950001832,None,116.43575950001832,None,117.43810610001674,None,117.43810610001674,None,117.43810610001674,None,117.43810610001674,None,sultan,001,2020_Nov_24_0937,offline,2020.2.6,120,
"[1, 1, 1]","[1, 1, 1]","[1, 0, 0]","[1, 1, 1]",5,0,5,0,0,2,2,1,,,,,,,,,120.43662410002435,None,120.43662410002435,None,120.43662410002435,None,120.43662410002435,None,120.43662410002435,None,121.43897169997217,None,121.43897169997217,None,121.43897169997217,None,121.43897169997217,None,sultan,001,2020_Nov_24_0937,offline,2020.2.6,120,
"[1, 1, 1]","[1, 1, 1]","[1, 1, 1]","[1, 0, 0]",5,0,5,0,0,3,3,0,,,,,,,,,124.43733300000895,None,124.43733300000895,None,124.43733300000895,None,124.43733300000895,None,124.43733300000895,None,125.43964100000449,None,125.43964100000449,None,125.43964100000449,None,125.43964100000449,None,sultan,001,2020_Nov_24_0937,offline,2020.2.6,120,
,,,,5,0,5,0,,,,,,,,,,,128.43830560002243,None,,,,,,,,,,,,,,,,,,,sultan,001,2020_Nov_24_0937,offline,2020.2.6,120,
"[1, 1, 1]","[1, 0, 0]","[1, 1, 1]","[1, 1, 1]",6,0,6,0,0,0,0,2,,,,,,,129.44066480000038,None,130.43560730002355,None,130.43560730002355,None,130.43560730002355,None,130.43560730002355,None,130.43560730002355,None,131.43690450000577,None,131.43690450000577,None,131.43690450000577,None,131.43690450000577,None,sultan,001,2020_Nov_24_0937,offline,2020.2.6,120,
"[1, 1, 1]","[1, 1, 1]","[1, 0, 0]","[1, 1, 1]",6,0,6,0,0,1,1,1,,,,,,,,,134.4322982999729,None,134.4322982999729,None,134.4322982999729,None,134.4322982999729,None,134.4322982999729,None,135.43895390001126,None,135.43895390001126,None,135.43895390001126,None,135.43895390001126,None,sultan,001,2020_Nov_24_0937,offline,2020.2.6,120,
"[1, 1, 1]","[1, 1, 1]","[1, 1, 1]","[1, 0, 0]",6,0,6,0,0,2,2,0,,,,,,,,,138.43921759998193,None,138.43921759998193,None,138.43921759998193,None,138.43921759998193,None,138.43921759998193,None,139.4398798000184,None,139.4398798000184,None,139.4398798000184,None,139.4398798000184,None,sultan,001,2020_Nov_24_0937,offline,2020.2.6,120,
"[1, 0, 0]","[1, 1, 1]","[1, 1, 1]","[1, 1, 1]",6,0,6,0,0,3,3,3,,,,,,,,,142.43998450000072,None,142.43998450000072,None,142.43998450000072,None,142.43998450000072,None,142.43998450000072,None,143.43379550002282,None,143.43379550002282,None,143.43379550002282,None,143.43379550002282,None,sultan,001,2020_Nov_24_0937,offline,2020.2.6,120,
,,,,6,0,6,0,,,,,,,,,,,146.4331821000087,None,,,,,,,,,,,,,,,,,,,sultan,001,2020_Nov_24_0937,offline,2020.2.6,120,
"[1, 0, 0]","[1, 1, 1]","[1, 1, 1]","[1, 1, 1]",7,0,7,0,0,0,0,3,,,,,,,147.4354473000276,None,148.43860689998837,None,148.43860689998837,None,148.43860689998837,None,148.43860689998837,None,148.43860689998837,None,149.4325916999951,None,149.4325916999951,None,149.4325916999951,None,149.4325916999951,None,sultan,001,2020_Nov_24_0937,offline,2020.2.6,120,
"[1, 1, 1]","[1, 1, 1]","[1, 0, 0]","[1, 1, 1]",7,0,7,0,0,1,1,1,,,,,,,,,152.43954220000887,None,152.43954220000887,None,152.43954220000887,None,152.43954220000887,None,152.43954220000887,None,153.43343729997287,None,153.43343729997287,None,153.43343729997287,None,153.43343729997287,None,sultan,001,2020_Nov_24_0937,offline,2020.2.6,120,
"[1, 1, 1]","[1, 0, 0]","[1, 1, 1]","[1, 1, 1]",7,0,7,0,0,2,2,2,,,,,,,,,156.4403565999819,None,156.4403565999819,None,156.4403565999819,None,156.4403565999819,None,156.4403565999819,None,157.43435200001113,None,157.43435200001113,None,157.43435200001113,None,157.43435200001113,None,sultan,001,2020_Nov_24_0937,offline,2020.2.6,120,
"[1, 1, 1]","[1, 1, 1]","[1, 1, 1]","[1, 0, 0]",7,0,7,0,0,3,3,0,,,,,,,,,160.43307979998644,None,160.43307979998644,None,160.43307979998644,None,160.43307979998644,None,160.43307979998644,None,161.43570149998413,None,161.43570149998413,None,161.43570149998413,None,161.43570149998413,None,sultan,001,2020_Nov_24_0937,offline,2020.2.6,120,
,,,,7,0,7,0,,,,,,,,,,,164.43449389998568,None,,,,,,,,,,,,,,,,,,,sultan,001,2020_Nov_24_0937,offline,2020.2.6,120,
"[1, 1, 1]","[1, 0, 0]","[1, 1, 1]","[1, 1, 1]",8,0,8,0,0,0,0,2,,,,,,,165.43697600002633,None,166.43908189999638,None,166.43908189999638,None,166.43908189999638,None,166.43908189999638,None,166.43908189999638,None,167.43292320001638,None,167.43292320001638,None,167.43292320001638,None,167.43292320001638,None,sultan,001,2020_Nov_24_0937,offline,2020.2.6,120,
"[1, 1, 1]","[1, 1, 1]","[1, 0, 0]","[1, 1, 1]",8,0,8,0,0,1,1,1,,,,,,,,,170.43995119998,None,170.43995119998,None,170.43995119998,None,170.43995119998,None,170.43995119998,None,171.433992700011,None,171.433992700011,None,171.433992700011,None,171.433992700011,None,sultan,001,2020_Nov_24_0937,offline,2020.2.6,120,
"[1, 0, 0]","[1, 1, 1]","[1, 1, 1]","[1, 1, 1]",8,0,8,0,0,2,2,3,,,,,,,,,174.43245030002436,None,174.43245030002436,None,174.43245030002436,None,174.43245030002436,None,174.43245030002436,None,175.43580540001858,None,175.43580540001858,None,175.43580540001858,None,175.43580540001858,None,sultan,001,2020_Nov_24_0937,offline,2020.2.6,120,
"[1, 1, 1]","[1, 1, 1]","[1, 1, 1]","[1, 0, 0]",8,0,8,0,0,3,3,0,,,,,,,,,178.43390479998197,None,178.43390479998197,None,178.43390479998197,None,178.43390479998197,None,178.43390479998197,None,179.43634379998548,None,179.43634379998548,None,179.43634379998548,None,179.43634379998548,None,sultan,001,2020_Nov_24_0937,offline,2020.2.6,120,
,,,,8,0,8,0,,,,,,,,,,,182.43472989997827,None,,,,,,,,,,,,,,,,,,,sultan,001,2020_Nov_24_0937,offline,2020.2.6,120,
"[1, 1, 1]","[1, 1, 1]","[1, 0, 0]","[1, 1, 1]",9,0,9,0,0,0,0,1,,,,,,,183.43948539998382,None,184.43430999998236,None,184.43430999998236,None,184.43430999998236,None,184.43430999998236,None,184.43430999998236,None,185.43914640002185,None,185.43914640002185,None,185.43914640002185,None,185.43914640002185,None,sultan,001,2020_Nov_24_0937,offline,2020.2.6,120,
"[1, 0, 0]","[1, 1, 1]","[1, 1, 1]","[1, 1, 1]",9,0,9,0,0,1,1,3,,,,,,,,,188.43924660002813,None,188.43924660002813,None,188.43924660002813,None,188.43924660002813,None,188.43924660002813,None,189.44039559998782,None,189.44039559998782,None,189.44039559998782,None,189.44039559998782,None,sultan,001,2020_Nov_24_0937,offline,2020.2.6,120,
"[1, 1, 1]","[1, 0, 0]","[1, 1, 1]","[1, 1, 1]",9,0,9,0,0,2,2,2,,,,,,,,,192.43853109999327,None,192.43853109999327,None,192.43853109999327,None,192.43853109999327,None,192.43853109999327,None,193.43240649998188,None,193.43240649998188,None,193.43240649998188,None,193.43240649998188,None,sultan,001,2020_Nov_24_0937,offline,2020.2.6,120,
"[1, 1, 1]","[1, 1, 1]","[1, 1, 1]","[1, 0, 0]",9,0,9,0,0,3,3,0,,,,,,,,,196.4391940999776,None,196.4391940999776,None,196.4391940999776,None,196.4391940999776,None,196.4391940999776,None,197.4330868999823,None,197.4330868999823,None,197.4330868999823,None,197.4330868999823,None,sultan,001,2020_Nov_24_0937,offline,2020.2.6,120,
,,,,9,0,9,0,,,,,,,,,,,200.43985139997676,None,,,,,,,,,,,,,,,,,,,sultan,001,2020_Nov_24_0937,offline,2020.2.6,120,
"[1, 1, 1]","[1, 1, 1]","[1, 0, 0]","[1, 1, 1]",10,0,10,0,0,0,0,1,,,,,,,201.4337525999872,None,202.4360048000235,None,202.4360048000235,None,202.4360048000235,None,202.4360048000235,None,202.4360048000235,None,203.43839530000696,None,203.43839530000696,None,203.43839530000696,None,203.43839530000696,None,sultan,001,2020_Nov_24_0937,offline,2020.2.6,120,
"[1, 1, 1]","[1, 0, 0]","[1, 1, 1]","[1, 1, 1]",10,0,10,0,0,1,1,2,,,,,,,,,206.43694609997328,None,206.43694609997328,None,206.43694609997328,None,206.43694609997328,None,206.43694609997328,None,207.43935469997814,None,207.43935469997814,None,207.43935469997814,None,207.43935469997814,None,sultan,001,2020_Nov_24_0937,offline,2020.2.6,120,
"[1, 1, 1]","[1, 1, 1]","[1, 1, 1]","[1, 0, 0]",10,0,10,0,0,2,2,0,,,,,,,,,210.43313999997918,None,210.43313999997918,None,210.43313999997918,None,210.43313999997918,None,210.43313999997918,None,211.43570059997728,None,211.43570059997728,None,211.43570059997728,None,211.43570059997728,None,sultan,001,2020_Nov_24_0937,offline,2020.2.6,120,
"[1, 0, 0]","[1, 1, 1]","[1, 1, 1]","[1, 1, 1]",10,0,10,0,0,3,3,3,,,,,,,,,214.43395899998723,None,214.43395899998723,None,214.43395899998723,None,214.43395899998723,None,214.43395899998723,None,215.43636789999437,None,215.43636789999437,None,215.43636789999437,None,215.43636789999437,None,sultan,001,2020_Nov_24_0937,offline,2020.2.6,120,
,,,,10,0,10,0,,,,,,,,,,,218.43474270001752,None,,,,,,,,,,,,,,,,,,,sultan,001,2020_Nov_24_0937,offline,2020.2.6,120,
"[1, 1, 1]","[1, 1, 1]","[1, 1, 1]","[1, 0, 0]",11,0,11,0,0,0,0,0,,,,,,,219.43716979998862,None,220.43977789999917,None,220.43977789999917,None,220.43977789999917,None,220.43977789999917,None,220.43977789999917,None,221.43389809998916,None,221.43389809998916,None,221.43389809998916,None,221.43389809998916,None,sultan,001,2020_Nov_24_0937,offline,2020.2.6,120,
"[1, 0, 0]","[1, 1, 1]","[1, 1, 1]","[1, 1, 1]",11,0,11,0,0,1,1,3,,,,,,,,,224.43265309999697,None,224.43265309999697,None,224.43265309999697,None,224.43265309999697,None,224.43265309999697,None,225.43522789998678,None,225.43522789998678,None,225.43522789998678,None,225.43522789998678,None,sultan,001,2020_Nov_24_0937,offline,2020.2.6,120,
"[1, 1, 1]","[1, 0, 0]","[1, 1, 1]","[1, 1, 1]",11,0,11,0,0,2,2,2,,,,,,,,,228.43414339999435,None,228.43414339999435,None,228.43414339999435,None,228.43414339999435,None,228.43414339999435,None,229.43660110002384,None,229.43660110002384,None,229.43660110002384,None,229.43660110002384,None,sultan,001,2020_Nov_24_0937,offline,2020.2.6,120,
"[1, 1, 1]","[1, 1, 1]","[1, 0, 0]","[1, 1, 1]",11,0,11,0,0,3,3,1,,,,,,,,,232.43564350000815,None,232.43564350000815,None,232.43564350000815,None,232.43564350000815,None,232.43564350000815,None,233.43962630000897,None,233.43962630000897,None,233.43962630000897,None,233.43962630000897,None,sultan,001,2020_Nov_24_0937,offline,2020.2.6,120,
,,,,11,0,11,0,,,,,,,,,,,236.43926650000503,None,,,,,,,,,,,,,,,,,,,sultan,001,2020_Nov_24_0937,offline,2020.2.6,120,
"[1, 1, 1]","[1, 1, 1]","[1, 1, 1]","[1, 0, 0]",12,0,12,0,0,0,0,0,,,,,,,237.4336732000229,None,238.43971150001744,None,238.43971150001744,None,238.43971150001744,None,238.43971150001744,None,238.43971150001744,None,239.4392502999981,None,239.4392502999981,None,239.4392502999981,None,239.4392502999981,None,sultan,001,2020_Nov_24_0937,offline,2020.2.6,120,
"[1, 1, 1]","[1, 1, 1]","[1, 0, 0]","[1, 1, 1]",12,0,12,0,0,1,1,1,,,,,,,,,242.43887840001844,None,242.43887840001844,None,242.43887840001844,None,242.43887840001844,None,242.43887840001844,None,243.4327735999832,None,243.4327735999832,None,243.4327735999832,None,243.4327735999832,None,sultan,001,2020_Nov_24_0937,offline,2020.2.6,120,
"[1, 0, 0]","[1, 1, 1]","[1, 1, 1]","[1, 1, 1]",12,0,12,0,0,2,2,3,,,,,,,,,246.4396062999731,None,246.4396062999731,None,246.4396062999731,None,246.4396062999731,None,246.4396062999731,None,247.4335350000183,None,247.4335350000183,None,247.4335350000183,None,247.4335350000183,None,sultan,001,2020_Nov_24_0937,offline,2020.2.6,120,
"[1, 1, 1]","[1, 0, 0]","[1, 1, 1]","[1, 1, 1]",12,0,12,0,0,3,3,2,,,,,,,,,250.4405252999859,None,250.4405252999859,None,250.4405252999859,None,250.4405252999859,None,250.4405252999859,None,251.4345518000191,None,251.4345518000191,None,251.4345518000191,None,251.4345518000191,None,sultan,001,2020_Nov_24_0937,offline,2020.2.6,120,
,,,,12,0,12,0,,,,,,,,,,,254.43316050001886,None,,,,,,,,,,,,,,,,,,,sultan,001,2020_Nov_24_0937,offline,2020.2.6,120,
"[1, 1, 1]","[1, 1, 1]","[1, 0, 0]","[1, 1, 1]",13,0,13,0,0,0,0,1,,,,,,,255.43557470000815,None,256.43766390002565,None,256.43766390002565,None,256.43766390002565,None,256.43766390002565,None,256.43766390002565,None,257.44002869998803,None,257.44002869998803,None,257.44002869998803,None,257.44002869998803,None,sultan,001,2020_Nov_24_0937,offline,2020.2.6,120,
"[1, 1, 1]","[1, 1, 1]","[1, 1, 1]","[1, 0, 0]",13,0,13,0,0,1,1,0,,,,,,,,,260.4389030999737,None,260.4389030999737,None,260.4389030999737,None,260.4389030999737,None,260.4389030999737,None,261.4328886999865,None,261.4328886999865,None,261.4328886999865,None,261.4328886999865,None,sultan,001,2020_Nov_24_0937,offline,2020.2.6,120,
"[1, 0, 0]","[1, 1, 1]","[1, 1, 1]","[1, 1, 1]",13,0,13,0,0,2,2,3,,,,,,,,,264.4396803000127,None,264.4396803000127,None,264.4396803000127,None,264.4396803000127,None,264.4396803000127,None,265.43373829999473,None,265.43373829999473,None,265.43373829999473,None,265.43373829999473,None,sultan,001,2020_Nov_24_0937,offline,2020.2.6,120,
"[1, 1, 1]","[1, 0, 0]","[1, 1, 1]","[1, 1, 1]",13,0,13,0,0,3,3,2,,,,,,,,,268.44066000002204,None,268.44066000002204,None,268.44066000002204,None,268.44066000002204,None,268.44066000002204,None,269.4344916000264,None,269.4344916000264,None,269.4344916000264,None,269.4344916000264,None,sultan,001,2020_Nov_24_0937,offline,2020.2.6,120,
,,,,13,0,13,0,,,,,,,,,,,272.43398149998393,None,,,,,,,,,,,,,,,,,,,sultan,001,2020_Nov_24_0937,offline,2020.2.6,120,
"[1, 0, 0]","[1, 1, 1]","[1, 1, 1]","[1, 1, 1]",14,0,14,0,0,0,0,3,,,,,,,273.4364304000046,None,274.438666299975,None,274.438666299975,None,274.438666299975,None,274.438666299975,None,274.438666299975,None,275.4332232999732,None,275.4332232999732,None,275.4332232999732,None,275.4332232999732,None,sultan,001,2020_Nov_24_0937,offline,2020.2.6,120,
"[1, 1, 1]","[1, 1, 1]","[1, 1, 1]","[1, 0, 0]",14,0,14,0,0,1,1,0,,,,,,,,,278.4400972999865,None,278.4400972999865,None,278.4400972999865,None,278.4400972999865,None,278.4400972999865,None,279.4339675999945,None,279.4339675999945,None,279.4339675999945,None,279.4339675999945,None,sultan,001,2020_Nov_24_0937,offline,2020.2.6,120,
"[1, 1, 1]","[1, 0, 0]","[1, 1, 1]","[1, 1, 1]",14,0,14,0,0,2,2,2,,,,,,,,,282.4323816000251,None,282.4323816000251,None,282.4323816000251,None,282.4323816000251,None,282.4323816000251,None,283.4393297000206,None,283.4393297000206,None,283.4393297000206,None,283.4393297000206,None,sultan,001,2020_Nov_24_0937,offline,2020.2.6,120,
"[1, 1, 1]","[1, 1, 1]","[1, 0, 0]","[1, 1, 1]",14,0,14,0,0,3,3,1,,,,,,,,,286.43432559998473,None,286.43432559998473,None,286.43432559998473,None,286.43432559998473,None,286.43432559998473,None,287.43977509997785,None,287.43977509997785,None,287.43977509997785,None,287.43977509997785,None,sultan,001,2020_Nov_24_0937,offline,2020.2.6,120,
,,,,14,0,14,0,,,,,,,,,,,290.4359845999861,None,,,,,,,,,,,,,,,,,,,sultan,001,2020_Nov_24_0937,offline,2020.2.6,120,
"[1, 1, 1]","[1, 0, 0]","[1, 1, 1]","[1, 1, 1]",15,0,15,0,0,0,0,2,,,,,,,291.43831360002514,None,292.4405061000143,None,292.4405061000143,None,292.4405061000143,None,292.4405061000143,None,292.4405061000143,None,293.43450039997697,None,293.43450039997697,None,293.43450039997697,None,293.43450039997697,None,sultan,001,2020_Nov_24_0937,offline,2020.2.6,120,
"[1, 1, 1]","[1, 1, 1]","[1, 1, 1]","[1, 0, 0]",15,0,15,0,0,1,1,0,,,,,,,,,296.4330407999805,None,296.4330407999805,None,296.4330407999805,None,296.4330407999805,None,296.4330407999805,None,297.4357071000268,None,297.4357071000268,None,297.4357071000268,None,297.4357071000268,None,sultan,001,2020_Nov_24_0937,offline,2020.2.6,120,
"[1, 1, 1]","[1, 1, 1]","[1, 0, 0]","[1, 1, 1]",15,0,15,0,0,2,2,1,,,,,,,,,300.43408680002904,None,300.43408680002904,None,300.43408680002904,None,300.43408680002904,None,300.43408680002904,None,301.43642869999167,None,301.43642869999167,None,301.43642869999167,None,301.43642869999167,None,sultan,001,2020_Nov_24_0937,offline,2020.2.6,120,
"[1, 0, 0]","[1, 1, 1]","[1, 1, 1]","[1, 1, 1]",15,0,15,0,0,3,3,3,,,,,,,,,304.4370883000083,None,304.4370883000083,None,304.4370883000083,None,304.4370883000083,None,304.4370883000083,None,305.4394053000142,None,305.4394053000142,None,305.4394053000142,None,305.4394053000142,None,sultan,001,2020_Nov_24_0937,offline,2020.2.6,120,
,,,,15,0,15,0,,,,,,,,,,,308.43802980001783,None,,,,,,,,,,,,,,,,,,,sultan,001,2020_Nov_24_0937,offline,2020.2.6,120,
"[1, 1, 1]","[1, 0, 0]","[1, 1, 1]","[1, 1, 1]",16,0,16,0,0,0,0,2,,,,,,,309.440503299993,None,310.4341946999775,None,310.4341946999775,None,310.4341946999775,None,310.4341946999775,None,310.4341946999775,None,311.4366409999784,None,311.4366409999784,None,311.4366409999784,None,311.4366409999784,None,sultan,001,2020_Nov_24_0937,offline,2020.2.6,120,
"[1, 1, 1]","[1, 1, 1]","[1, 0, 0]","[1, 1, 1]",16,0,16,0,0,1,1,1,,,,,,,,,314.43609580001794,None,314.43609580001794,None,314.43609580001794,None,314.43609580001794,None,314.43609580001794,None,315.43851489998633,None,315.43851489998633,None,315.43851489998633,None,315.43851489998633,None,sultan,001,2020_Nov_24_0937,offline,2020.2.6,120,
"[1, 1, 1]","[1, 1, 1]","[1, 1, 1]","[1, 0, 0]",16,0,16,0,0,2,2,0,,,,,,,,,318.4370013999869,None,318.4370013999869,None,318.4370013999869,None,318.4370013999869,None,318.4370013999869,None,319.4392939999816,None,319.4392939999816,None,319.4392939999816,None,319.4392939999816,None,sultan,001,2020_Nov_24_0937,offline,2020.2.6,120,
"[1, 0, 0]","[1, 1, 1]","[1, 1, 1]","[1, 1, 1]",16,0,16,0,0,3,3,3,,,,,,,,,322.43782039999496,None,322.43782039999496,None,322.43782039999496,None,322.43782039999496,None,322.43782039999496,None,323.44012849999126,None,323.44012849999126,None,323.44012849999126,None,323.44012849999126,None,sultan,001,2020_Nov_24_0937,offline,2020.2.6,120,
,,,,16,0,16,0,,,,,,,,,,,326.4387170000118,None,,,,,,,,,,,,,,,,,,,sultan,001,2020_Nov_24_0937,offline,2020.2.6,120,
"[1, 1, 1]","[1, 1, 1]","[1, 1, 1]","[1, 0, 0]",17,0,17,0,0,0,0,0,,,,,,,327.43260399997234,None,328.43486450001365,None,328.43486450001365,None,328.43486450001365,None,328.43486450001365,None,328.43486450001365,None,329.4373677999829,None,329.4373677999829,None,329.4373677999829,None,329.4373677999829,None,sultan,001,2020_Nov_24_0937,offline,2020.2.6,120,
"[1, 1, 1]","[1, 0, 0]","[1, 1, 1]","[1, 1, 1]",17,0,17,0,0,1,1,2,,,,,,,,,332.4360416000127,None,332.4360416000127,None,332.4360416000127,None,332.4360416000127,None,332.4360416000127,None,333.4382143000257,None,333.4382143000257,None,333.4382143000257,None,333.4382143000257,None,sultan,001,2020_Nov_24_0937,offline,2020.2.6,120,
"[1, 0, 0]","[1, 1, 1]","[1, 1, 1]","[1, 1, 1]",17,0,17,0,0,2,2,3,,,,,,,,,336.43935810000403,None,336.43935810000403,None,336.43935810000403,None,336.43935810000403,None,336.43935810000403,None,337.4328985000029,None,337.4328985000029,None,337.4328985000029,None,337.4328985000029,None,sultan,001,2020_Nov_24_0937,offline,2020.2.6,120,
"[1, 1, 1]","[1, 1, 1]","[1, 0, 0]","[1, 1, 1]",17,0,17,0,0,3,3,1,,,,,,,,,340.4323448999785,None,340.4323448999785,None,340.4323448999785,None,340.4323448999785,None,340.4323448999785,None,341.4346022999962,None,341.4346022999962,None,341.4346022999962,None,341.4346022999962,None,sultan,001,2020_Nov_24_0937,offline,2020.2.6,120,
,,,,17,0,17,0,,,,,,,,,,,344.4330871999846,None,,,,,,,,,,,,,,,,,,,sultan,001,2020_Nov_24_0937,offline,2020.2.6,120,
"[1, 1, 1]","[1, 1, 1]","[1, 1, 1]","[1, 0, 0]",18,0,18,0,0,0,0,0,,,,,,,345.4356630999828,None,346.4373385999934,None,346.4373385999934,None,346.4373385999934,None,346.4373385999934,None,346.4373385999934,None,347.4399216999882,None,347.4399216999882,None,347.4399216999882,None,347.4399216999882,None,sultan,001,2020_Nov_24_0937,offline,2020.2.6,120,
"[1, 0, 0]","[1, 1, 1]","[1, 1, 1]","[1, 1, 1]",18,0,18,0,0,1,1,3,,,,,,,,,350.43871199997375,None,350.43871199997375,None,350.43871199997375,None,350.43871199997375,None,350.43871199997375,None,351.4326003000024,None,351.4326003000024,None,351.4326003000024,None,351.4326003000024,None,sultan,001,2020_Nov_24_0937,offline,2020.2.6,120,
"[1, 1, 1]","[1, 0, 0]","[1, 1, 1]","[1, 1, 1]",18,0,18,0,0,2,2,2,,,,,,,,,354.4397039000178,None,354.4397039000178,None,354.4397039000178,None,354.4397039000178,None,354.4397039000178,None,355.43361690000165,None,355.43361690000165,None,355.43361690000165,None,355.43361690000165,None,sultan,001,2020_Nov_24_0937,offline,2020.2.6,120,
"[1, 1, 1]","[1, 1, 1]","[1, 0, 0]","[1, 1, 1]",18,0,18,0,0,3,3,1,,,,,,,,,358.43296539998846,None,358.43296539998846,None,358.43296539998846,None,358.43296539998846,None,358.43296539998846,None,359.43559670000104,None,359.43559670000104,None,359.43559670000104,None,359.43559670000104,None,sultan,001,2020_Nov_24_0937,offline,2020.2.6,120,
,,,,18,0,18,0,,,,,,,,,,,362.4337678999873,None,,,,,,,,,,,,,,,,,,,sultan,001,2020_Nov_24_0937,offline,2020.2.6,120,
"[1, 1, 1]","[1, 1, 1]","[1, 1, 1]","[1, 0, 0]",19,0,19,0,0,0,0,0,,,,,,,363.43613300001016,None,364.4399310000008,None,364.4399310000008,None,364.4399310000008,None,364.4399310000008,None,364.4399310000008,None,365.4350801000255,None,365.4350801000255,None,365.4350801000255,None,365.4350801000255,None,sultan,001,2020_Nov_24_0937,offline,2020.2.6,120,
"[1, 0, 0]","[1, 1, 1]","[1, 1, 1]","[1, 1, 1]",19,0,19,0,0,1,1,3,,,,,,,,,368.4339930000133,None,368.4339930000133,None,368.4339930000133,None,368.4339930000133,None,368.4339930000133,None,369.43641299998853,None,369.43641299998853,None,369.43641299998853,None,369.43641299998853,None,sultan,001,2020_Nov_24_0937,offline,2020.2.6,120,
"[1, 1, 1]","[1, 0, 0]","[1, 1, 1]","[1, 1, 1]",19,0,19,0,0,2,2,2,,,,,,,,,372.4349570000195,None,372.4349570000195,None,372.4349570000195,None,372.4349570000195,None,372.4349570000195,None,373.4372819000273,None,373.4372819000273,None,373.4372819000273,None,373.4372819000273,None,sultan,001,2020_Nov_24_0937,offline,2020.2.6,120,
"[1, 1, 1]","[1, 1, 1]","[1, 0, 0]","[1, 1, 1]",19,0,19,0,0,3,3,1,,,,,,,,,376.43548749998445,None,376.43548749998445,None,376.43548749998445,None,376.43548749998445,None,376.43548749998445,None,377.4379471000284,None,377.4379471000284,None,377.4379471000284,None,377.4379471000284,None,sultan,001,2020_Nov_24_0937,offline,2020.2.6,120,
,,,,19,0,19,0,,,,,,,,,,,380.4367705999757,None,,,,,,,,,,,,,,,,,,,sultan,001,2020_Nov_24_0937,offline,2020.2.6,120,
"[1, 1, 1]","[1, 0, 0]","[1, 1, 1]","[1, 1, 1]",20,0,20,0,0,0,0,2,,,,,,,381.4380769000272,None,382.44023020000895,None,382.44023020000895,None,382.44023020000895,None,382.44023020000895,None,382.44023020000895,None,383.4342437000014,None,383.4342437000014,None,383.4342437000014,None,383.4342437000014,None,sultan,001,2020_Nov_24_0937,offline,2020.2.6,120,
"[1, 1, 1]","[1, 1, 1]","[1, 0, 0]","[1, 1, 1]",20,0,20,0,0,1,1,1,,,,,,,,,386.4395019999938,None,386.4395019999938,None,386.4395019999938,None,386.4395019999938,None,386.4395019999938,None,387.4343236000277,None,387.4343236000277,None,387.4343236000277,None,387.4343236000277,None,sultan,001,2020_Nov_24_0937,offline,2020.2.6,120,
"[1, 0, 0]","[1, 1, 1]","[1, 1, 1]","[1, 1, 1]",20,0,20,0,0,2,2,3,,,,,,,,,390.4405397999799,None,390.4405397999799,None,390.4405397999799,None,390.4405397999799,None,390.4405397999799,None,391.4369424000033,None,391.4369424000033,None,391.4369424000033,None,391.4369424000033,None,sultan,001,2020_Nov_24_0937,offline,2020.2.6,120,
"[1, 1, 1]","[1, 1, 1]","[1, 1, 1]","[1, 0, 0]",20,0,20,0,0,3,3,0,,,,,,,,,394.4354712999775,None,394.4354712999775,None,394.4354712999775,None,394.4354712999775,None,394.4354712999775,None,395.4379994000192,None,395.4379994000192,None,395.4379994000192,None,395.4379994000192,None,sultan,001,2020_Nov_24_0937,offline,2020.2.6,120,
,,,,20,0,20,0,,,,,,,,,,,398.4364152000053,None,,,,,,,,,,,,,,,,,,,sultan,001,2020_Nov_24_0937,offline,2020.2.6,120,
"[1, 1, 1]","[1, 0, 0]","[1, 1, 1]","[1, 1, 1]",21,0,21,0,0,0,0,2,,,,,,,399.43874999997206,None,400.4326977999881,None,400.4326977999881,None,400.4326977999881,None,400.4326977999881,None,400.4326977999881,None,401.43521119997604,None,401.43521119997604,None,401.43521119997604,None,401.43521119997604,None,sultan,001,2020_Nov_24_0937,offline,2020.2.6,120,
"[1, 1, 1]","[1, 1, 1]","[1, 1, 1]","[1, 0, 0]",21,0,21,0,0,1,1,0,,,,,,,,,404.43346660002135,None,404.43346660002135,None,404.43346660002135,None,404.43346660002135,None,404.43346660002135,None,405.43592860002536,None,405.43592860002536,None,405.43592860002536,None,405.43592860002536,None,sultan,001,2020_Nov_24_0937,offline,2020.2.6,120,
"[1, 1, 1]","[1, 1, 1]","[1, 0, 0]","[1, 1, 1]",21,0,21,0,0,2,2,1,,,,,,,,,408.43456439999864,None,408.43456439999864,None,408.43456439999864,None,408.43456439999864,None,408.43456439999864,None,409.4369853999815,None,409.4369853999815,None,409.4369853999815,None,409.4369853999815,None,sultan,001,2020_Nov_24_0937,offline,2020.2.6,120,
"[1, 0, 0]","[1, 1, 1]","[1, 1, 1]","[1, 1, 1]",21,0,21,0,0,3,3,3,,,,,,,,,412.4358637999976,None,412.4358637999976,None,412.4358637999976,None,412.4358637999976,None,412.4358637999976,None,413.4377556000254,None,413.4377556000254,None,413.4377556000254,None,413.4377556000254,None,sultan,001,2020_Nov_24_0937,offline,2020.2.6,120,
,,,,21,0,21,0,,,,,,,,,,,416.4361913999892,None,,,,,,,,,,,,,,,,,,,sultan,001,2020_Nov_24_0937,offline,2020.2.6,120,
"[1, 0, 0]","[1, 1, 1]","[1, 1, 1]","[1, 1, 1]",22,0,22,0,0,0,0,3,,,,,,,417.43845020001754,None,418.4323731000186,None,418.4323731000186,None,418.4323731000186,None,418.4323731000186,None,418.4323731000186,None,419.4346274000127,None,419.4346274000127,None,419.4346274000127,None,419.4346274000127,None,sultan,001,2020_Nov_24_0937,offline,2020.2.6,120,
"[1, 1, 1]","[1, 1, 1]","[1, 1, 1]","[1, 0, 0]",22,0,22,0,0,1,1,0,,,,,,,,,422.4332951999968,None,422.4332951999968,None,422.4332951999968,None,422.4332951999968,None,422.4332951999968,None,423.44019110000227,None,423.44019110000227,None,423.44019110000227,None,423.44019110000227,None,sultan,001,2020_Nov_24_0937,offline,2020.2.6,120,
"[1, 1, 1]","[1, 1, 1]","[1, 0, 0]","[1, 1, 1]",22,0,22,0,0,2,2,1,,,,,,,,,426.43937640002696,None,426.43937640002696,None,426.43937640002696,None,426.43937640002696,None,426.43937640002696,None,427.43327749997843,None,427.43327749997843,None,427.43327749997843,None,427.43327749997843,None,sultan,001,2020_Nov_24_0937,offline,2020.2.6,120,
"[1, 1, 1]","[1, 0, 0]","[1, 1, 1]","[1, 1, 1]",22,0,22,0,0,3,3,2,,,,,,,,,430.4400571999722,None,430.4400571999722,None,430.4400571999722,None,430.4400571999722,None,430.4400571999722,None,431.43404480000027,None,431.43404480000027,None,431.43404480000027,None,431.43404480000027,None,sultan,001,2020_Nov_24_0937,offline,2020.2.6,120,
,,,,22,0,22,0,,,,,,,,,,,434.4327927000122,None,,,,,,,,,,,,,,,,,,,sultan,001,2020_Nov_24_0937,offline,2020.2.6,120,
"[1, 0, 0]","[1, 1, 1]","[1, 1, 1]","[1, 1, 1]",23,0,23,0,0,0,0,3,,,,,,,435.4351359999855,None,436.43735109997215,None,436.43735109997215,None,436.43735109997215,None,436.43735109997215,None,436.43735109997215,None,437.43979400000535,None,437.43979400000535,None,437.43979400000535,None,437.43979400000535,None,sultan,001,2020_Nov_24_0937,offline,2020.2.6,120,
"[1, 1, 1]","[1, 1, 1]","[1, 1, 1]","[1, 0, 0]",23,0,23,0,0,1,1,0,,,,,,,,,440.4323461999884,None,440.4323461999884,None,440.4323461999884,None,440.4323461999884,None,440.4323461999884,None,441.4340067000012,None,441.4340067000012,None,441.4340067000012,None,441.4340067000012,None,sultan,001,2020_Nov_24_0937,offline,2020.2.6,120,
"[1, 1, 1]","[1, 1, 1]","[1, 0, 0]","[1, 1, 1]",23,0,23,0,0,2,2,1,,,,,,,,,444.4323168999981,None,444.4323168999981,None,444.4323168999981,None,444.4323168999981,None,444.4323168999981,None,445.4345103999949,None,445.4345103999949,None,445.4345103999949,None,445.4345103999949,None,sultan,001,2020_Nov_24_0937,offline,2020.2.6,120,
"[1, 1, 1]","[1, 0, 0]","[1, 1, 1]","[1, 1, 1]",23,0,23,0,0,3,3,2,,,,,,,,,448.43312010000227,None,448.43312010000227,None,448.43312010000227,None,448.43312010000227,None,448.43312010000227,None,449.43539130000863,None,449.43539130000863,None,449.43539130000863,None,449.43539130000863,None,sultan,001,2020_Nov_24_0937,offline,2020.2.6,120,
,,,,23,0,23,0,,,,,,,,,,,452.4340372000006,None,,,,,,,,,,,,,,,,,,,sultan,001,2020_Nov_24_0937,offline,2020.2.6,120,
"[1, 1, 1]","[1, 1, 1]","[1, 0, 0]","[1, 1, 1]",24,0,24,0,0,0,0,1,,,,,,,453.436448100023,None,454.43870469997637,None,454.43870469997637,None,454.43870469997637,None,454.43870469997637,None,454.43870469997637,None,455.43266170000425,None,455.43266170000425,None,455.43266170000425,None,455.43266170000425,None,sultan,001,2020_Nov_24_0937,offline,2020.2.6,120,
"[1, 0, 0]","[1, 1, 1]","[1, 1, 1]","[1, 1, 1]",24,0,24,0,0,1,1,3,,,,,,,,,458.4318961999961,None,458.4318961999961,None,458.4318961999961,None,458.4318961999961,None,458.4318961999961,None,459.4340563999722,None,459.4340563999722,None,459.4340563999722,None,459.4340563999722,None,sultan,001,2020_Nov_24_0937,offline,2020.2.6,120,
"[1, 1, 1]","[1, 0, 0]","[1, 1, 1]","[1, 1, 1]",24,0,24,0,0,2,2,2,,,,,,,,,462.4326819999842,None,462.4326819999842,None,462.4326819999842,None,462.4326819999842,None,462.4326819999842,None,463.43565960001433,None,463.43565960001433,None,463.43565960001433,None,463.43565960001433,None,sultan,001,2020_Nov_24_0937,offline,2020.2.6,120,
"[1, 1, 1]","[1, 1, 1]","[1, 1, 1]","[1, 0, 0]",24,0,24,0,0,3,3,0,,,,,,,,,466.434155200026,None,466.434155200026,None,466.434155200026,None,466.434155200026,None,466.434155200026,None,467.43658919999143,None,467.43658919999143,None,467.43658919999143,None,467.43658919999143,None,sultan,001,2020_Nov_24_0937,offline,2020.2.6,120,
,,,,24,0,24,0,,,,,,,,,,,470.4349157999968,None,,,,,,,,,,,,,,,,,,,sultan,001,2020_Nov_24_0937,offline,2020.2.6,120,
